File: R_code/LAB6_step007time02_12jan11uxd.uxd
; (content of file Z:\mse\sc\general\XRD-SRD\eilers\LAB6_step007time02_12jan11.raw)
_FILEVERSION = 2
_SAMPLE = "45/30 4A16 SP52  noscreen! psd9dgr (22/32mm) mono2"
_+SAMPLE =
_SITE = NL
_USER = SRd
_GONIOMETER_CODE = 20
; Goniometer : D8 theta/2theta, stage : Unknown
_SAMPLE_CHANGER_CODE = 0
_ATTACHMENTS_CODE = 0
_GONIOMETER_RADIUS = 275
_FIXED_DIVSLIT = 6
_FIXED_SAMPLESLIT = 1
_FIXED_DETSLIT = 32.09
_MONOCHROMATOR = 0
; Incident beam monochromator : None
_THIN_FILM = N
_BETA_FILTER = N
_FIXED_ANTISLIT = 20.19
_ANALYZER_CODE = 1
; Received beam analyzer : Graphite
_DATEMEASURED = "12-Jan-2011 14:27:16"
_WL_UNIT = A
_WL1 = 1.78897
_WL2 = 1.79285
_WL3 = 1.62079
_WLRATIO = 0.5
_ANODE = Co

; Data for range 1
_DRIVE = COUPLED
_STEPTIME = 27.2
_STEPSIZE = 0.00691285
_STEPMODE = C
_START = 30
_THETA = 15
_2THETA = 30
_KHI = 0
_PHI = 0
_X = 0
_Y = 0
_Z = 0
_DIVERGENCE = 1.971
_DETECTOR = 5
; Detector type : Unknown
_DETECTORSLIT = out
_AUX1 = 0
_AUX2 = 0
_AUX3 = 0
_TIMESTARTED = 9
_ROTATION_SPEED = 30
_TEMP_RATE = -1
_TEMP_DELAY = -1
_KV = 45
_MA = 35
_RANGE_WL = 1.78897
_3DPLANE = 0
_V4_COUNTERS_MASK = 4096
_V4_DRIVES_MASK = 0
_V4_ENCODERS_MASK = 0
_2THETACOUNTS = 1
; 2THETA  PSD
  30.0000         45
  30.0760         49
  30.1521         58
  30.2281         46
  30.3042         56
  30.3802         60
  30.4562         51
  30.5323         45
  30.6083         42
  30.6844         48
  30.7604         59
  30.8365         37
  30.9125         54
  30.9885         59
  31.0646         58
  31.1406         61
  31.2167         45
  31.2927         60
  31.3687         56
  31.4448         38
  31.5208         51
  31.5969         52
  31.6729         54
  31.7490         44
  31.8250         58
  31.9010         44
  31.9771         59
  32.0531         59
  32.1292         53
  32.2052         55
  32.2812         52
  32.3573         57
  32.4333         42
  32.5094         49
  32.5854         45
  32.6614         59
  32.7375         46
  32.8135         53
  32.8896         48
  32.9656         49
  33.0417         42
  33.1177         52
  33.1937         48
  33.2698         59
  33.3458         41
  33.4219         35
  33.4979         49
  33.5739         54
  33.6500         56
  33.7260         50
  33.8021         44
  33.8781         45
  33.9542         47
  34.0302         42
  34.1062         37
  34.1823         30
  34.2583         45
  34.3344         42
  34.4104         28
  34.4864         45
  34.5625         49
  34.6385         40
  34.7146         60
  34.7906         42
  34.8666         47
  34.9427         46
  35.0187         55
  35.0948         51
  35.1708         90
  35.2469        177
  35.3229        331
  35.3989        596
  35.4750       1241
  35.5510        828
  35.6271        289
  35.7031        131
  35.7791         96
  35.8552         60
  35.9312         44
  36.0073         43
  36.0833         35
  36.1593         49
  36.2354         41
  36.3114         48
  36.3875         40
  36.4635         42
  36.5396         39
  36.6156         40
  36.6916         48
  36.7677         42
  36.8437         39
  36.9198         45
  36.9958         38
  37.0718         35
  37.1479         27
  37.2239         24
  37.3000         34
  37.3760         32
  37.4521         31
  37.5281         28
  37.6041         32
  37.6802         34
  37.7562         34
  37.8323         31
  37.9083         37
  37.9843         26
  38.0604         36
  38.1364         40
  38.2125         31
  38.2885         27
  38.3645         26
  38.4406         30
  38.5166         35
  38.5927         25
  38.6687         30
  38.7448         36
  38.8208         35
  38.8968         25
  38.9729         32
  39.0489         25
  39.1250         15
  39.2010         43
  39.2770         30
  39.3531         36
  39.4291         29
  39.5052         37
  39.5812         27
  39.6573         41
  39.7333         23
  39.8093         22
  39.8854         20
  39.9614         21
  40.0375         21
  40.1135         23
  40.1895         21
  40.2656         29
  40.3416         30
  40.4177         23
  40.4937         32
  40.5697         26
  40.6458         29
  40.7218         30
  40.7979         30
  40.8739         22
  40.9500         19
  41.0260         22
  41.1020         29
  41.1781         25
  41.2541         20
  41.3302         32
  41.4062         27
  41.4822         26
  41.5583         27
  41.6343         32
  41.7104         32
  41.7864         34
  41.8625         29
  41.9385         35
  42.0145         20
  42.0906         24
  42.1666         24
  42.2427         19
  42.3187         25
  42.3947         18
  42.4708         23
  42.5468         23
  42.6229         28
  42.6989         25
  42.7749         23
  42.8510         21
  42.9270         18
  43.0031         23
  43.0791         21
  43.1552         21
  43.2312         20
  43.3072         19
  43.3833         32
  43.4593         21
  43.5354         67
  43.6114        101
  43.6874        218
  43.7635        424
  43.8395        551
  43.9156        373
  43.9916        131
  44.0676         56
  44.1437         38
  44.2197         30
  44.2958         20
  44.3718         24
  44.4479         28
  44.5239         25
  44.5999         17
  44.6760         25
  44.7520         26
  44.8281         21
  44.9041         21
  44.9801         18
  45.0562         28
  45.1322         21
  45.2083         31
  45.2843         13
  45.3604         19
  45.4364         15
  45.5124         16
  45.5885         25
  45.6645         22
  45.7406         23
  45.8166         24
  45.8926         22
  45.9687         20
  46.0447         19
  46.1208         28
  46.1968         13
  46.2728         14
  46.3489         18
  46.4249         24
  46.5010         24
  46.5770         17
  46.6531         16
  46.7291         15
  46.8051         17
  46.8812         17
  46.9572         13
  47.0333         21
  47.1093         17
  47.1853         20
  47.2614         16
  47.3374         17
  47.4135         23
  47.4895         17
  47.5656          9
  47.6416         19
  47.7176         14
  47.7937         16
  47.8697         14
  47.9458         23
  48.0218         10
  48.0978         28
  48.1739         15
  48.2499         19
  48.3260         21
  48.4020         19
  48.4780         16
  48.5541         20
  48.6301         12
  48.7062         10
  48.7822         18
  48.8583         18
  48.9343         17
  49.0103         19
  49.0864         13
  49.1624         11
  49.2385         11
  49.3145         17
  49.3905         21
  49.4666         11
  49.5426         20
  49.6187         16
  49.6947         13
  49.7708         17
  49.8468         15
  49.9228         14
  49.9989         19
  50.0749         17
  50.1510         20
  50.2270         22
  50.3030         19
  50.3791         25
  50.4551          9
  50.5312         17
  50.6072         25
  50.6832         27
  50.7593         32
  50.8353         60
  50.9114         98
  50.9874        227
  51.0635        266
  51.1395        168
  51.2155         89
  51.2916         35
  51.3676         29
  51.4437         18
  51.5197         21
  51.5957         15
  51.6718         19
  51.7478         16
  51.8239         14
  51.8999          9
  51.9760         14
  52.0520         20
  52.1280         26
  52.2041         23
  52.2801         21
  52.3562         16
  52.4322          8
  52.5082         15
  52.5843         19
  52.6603         19
  52.7364         20
  52.8124         13
  52.8884         13
  52.9645         16
  53.0405          8
  53.1166         13
  53.1926         18
  53.2687         11
  53.3447         17
  53.4207         15
  53.4968         23
  53.5728         18
  53.6489         20
  53.7249         18
  53.8009          8
  53.8770         19
  53.9530         21
  54.0291         10
  54.1051         21
  54.1811         13
  54.2572         13
  54.3332         12
  54.4093         15
  54.4853         11
  54.5614          5
  54.6374         17
  54.7134         15
  54.7895         11
  54.8655         11
  54.9416         13
  55.0176         15
  55.0936         18
  55.1697         20
  55.2457         14
  55.3218         11
  55.3978         14
  55.4739         14
  55.5499         17
  55.6259         28
  55.7020         11
  55.7780         14
  55.8541         12
  55.9301         13
  56.0061         17
  56.0822         18
  56.1582         12
  56.2343          9
  56.3103         17
  56.3863         11
  56.4624         15
  56.5384         24
  56.6145         19
  56.6905         15
  56.7666         16
  56.8426         14
  56.9186         21
  56.9947         14
  57.0707         14
  57.1468         24
  57.2228         31
  57.2988         43
  57.3749         87
  57.4509        164
  57.5270        496
  57.6030        516
  57.6791        339
  57.7551        212
  57.8311         60
  57.9072         37
  57.9832         20
  58.0593         21
  58.1353         22
  58.2113         15
  58.2874         18
  58.3634         18
  58.4395         19
  58.5155         15
  58.5915         11
  58.6676         12
  58.7436          9
  58.8197         12
  58.8957         14
  58.9718         13
  59.0478         13
  59.1238         11
  59.1999         15
  59.2759         13
  59.3520         16
  59.4280          8
  59.5040         12
  59.5801         12
  59.6561         17
  59.7322         13
  59.8082          8
  59.8843         12
  59.9603         16
  60.0363          9
  60.1124          9
  60.1884         13
  60.2645         10
  60.3405         12
  60.4165          9
  60.4926          7
  60.5686         13
  60.6447          7
  60.7207         16
  60.7967          6
  60.8728          9
  60.9488          9
  61.0249         14
  61.1009         10
  61.1770         14
  61.2530          7
  61.3290          5
  61.4051         14
  61.4811          7
  61.5572         14
  61.6332         14
  61.7092         17
  61.7853         10
  61.8613         10
  61.9374          9
  62.0134         16
  62.0894         12
  62.1655          7
  62.2415         10
  62.3176         16
  62.3936         13
  62.4697         16
  62.5457         16
  62.6217         11
  62.6978          9
  62.7738         10
  62.8499          5
  62.9259         11
  63.0019          8
  63.0780         19
  63.1540         15
  63.2301         15
  63.3061         24
  63.3822         22
  63.4582         34
  63.5342         77
  63.6103        209
  63.6863        300
  63.7624        172
  63.8384        157
  63.9144         48
  63.9905         16
  64.0665         16
  64.1426         18
  64.2186         11
  64.2946          6
  64.3707          8
  64.4467         14
  64.5228         11
  64.5988         11
  64.6749          6
  64.7509         16
  64.8269         13
  64.9030          9
  64.9790         13
  65.0551          7
  65.1311          3
  65.2071         13
  65.2832         12
  65.3592          8
  65.4353         15
  65.5113         11
  65.5874          6
  65.6634          8
  65.7394          4
  65.8155          6
  65.8915          8
  65.9676          7
  66.0436          4
  66.1196          8
  66.1957         10
  66.2717         11
  66.3478         14
  66.4238          6
  66.4998          4
  66.5759          6
  66.6519         10
  66.7280          4
  66.8040         14
  66.8801         12
  66.9561          7
  67.0321         11
  67.1082         14
  67.1842         11
  67.2603          8
  67.3363         10
  67.4123          9
  67.4884          9
  67.5644         13
  67.6405         12
  67.7165          5
  67.7926          8
  67.8686         12
  67.9446         11
  68.0207         14
  68.0967          7
  68.1728         13
  68.2488          4
  68.3248          8
  68.4009          6
  68.4769          7
  68.5530          7
  68.6290          6
  68.7050          6
  68.7811         11
  68.8571          9
  68.9332          6
  69.0092          5
  69.0853          7
  69.1613         10
  69.2373          7
  69.3134          5
  69.3894          7
  69.4655          9
  69.5415          8
  69.6175         10
  69.6936          7
  69.7696          9
  69.8457          6
  69.9217         11
  69.9978          8
  70.0738          8
  70.1498          7
  70.2259          6
  70.3019          7
  70.3780         12
  70.4540          8
  70.5300          6
  70.6061          3
  70.6821          8
  70.7582          8
  70.8342          4
  70.9102          7
  70.9863         12
  71.0623          9
  71.1384          5
  71.2144         11
  71.2905          7
  71.3665          8
  71.4425         14
  71.5186         10
  71.5946         15
  71.6707          5
  71.7467          9
  71.8227         13
  71.8988          4
  71.9748         11
  72.0509         11
  72.1269         11
  72.2029         10
  72.2790         10
  72.3550         15
  72.4311          9
  72.5071         10
  72.5832         10
  72.6592          7
  72.7352          7
  72.8113         14
  72.8873          8
  72.9634          2
  73.0394          7
  73.1154         10
  73.1915          8
  73.2675          7
  73.3436          9
  73.4196          9
  73.4957         14
  73.5717         12
  73.6477          3
  73.7238         11
  73.7998          8
  73.8759         10
  73.9519          7
  74.0279          8
  74.1040         10
  74.1800         11
  74.2561          6
  74.3321          6
  74.4081          7
  74.4842          9
  74.5602         13
  74.6363         11
  74.7123         11
  74.7884         13
  74.8644         22
  74.9404         68
  75.0165        120
  75.0925         74
  75.1686         59
  75.2446         62
  75.3206         15
  75.3967         18
  75.4727         10
  75.5488         10
  75.6248          4
  75.7009          8
  75.7769          7
  75.8529          6
  75.9290          8
  76.0050          6
  76.0811          8
  76.1571          8
  76.2331          7
  76.3092          7
  76.3852          6
  76.4613          4
  76.5373          3
  76.6133          7
  76.6894         10
  76.7654          6
  76.8415          8
  76.9175         10
  76.9936          7
  77.0696          5
  77.1456          9
  77.2217         11
  77.2977          9
  77.3738          9
  77.4498          4
  77.5258         11
  77.6019         11
  77.6779          9
  77.7540         11
  77.8300         13
  77.9061          9
  77.9821          7
  78.0581         12
  78.1342         10
  78.2102         10
  78.2863          6
  78.3623          7
  78.4383          7
  78.5144          4
  78.5904          8
  78.6665          7
  78.7425          8
  78.8185         11
  78.8946          8
  78.9706         12
  79.0467          7
  79.1227         13
  79.1988          8
  79.2748         13
  79.3508          9
  79.4269         10
  79.5029          8
  79.5790          4
  79.6550         10
  79.7310          7
  79.8071         13
  79.8831         11
  79.9592         12
  80.0352         14
  80.1112         21
  80.1873         27
  80.2633         37
  80.3394         68
  80.4154        280
  80.4915        283
  80.5675        113
  80.6435        186
  80.7196         98
  80.7956         31
  80.8717         20
  80.9477         15
  81.0237         12
  81.0998         15
  81.1758          5
  81.2519          9
  81.3279         10
  81.4040         10
  81.4800         14
  81.5560         13
  81.6321         11
  81.7081         12
  81.7842          6
  81.8602          4
  81.9362          8
  82.0123          9
  82.0883         11
  82.1644          7
  82.2404          4
  82.3164          7
  82.3925          7
  82.4685          9
  82.5446          6
  82.6206         10
  82.6967          9
  82.7727          8
  82.8487          7
  82.9248          8
  83.0008          6
  83.0769          8
  83.1529          9
  83.2289          7
  83.3050          7
  83.3810          6
  83.4571         10
  83.5331          8
  83.6092         11
  83.6852          6
  83.7612          7
  83.8373          7
  83.9133          7
  83.9894          5
  84.0654          6
  84.1414          9
  84.2175          8
  84.2935          2
  84.3696          5
  84.4456         11
  84.5216         10
  84.5977          6
  84.6737          9
  84.7498          7
  84.8258          7
  84.9019          8
  84.9779         11
  85.0539          8
  85.1300          7
  85.2060         10
  85.2821          9
  85.3581          8
  85.4341         11
  85.5102         20
  85.5862         30
  85.6623         48
  85.7383        138
  85.8144        222
  85.8904         86
  85.9664         78
  86.0425        136
  86.1185         47
  86.1946         17
  86.2706         12
  86.3466         13
  86.4227         11
  86.4987          7
  86.5748          9
  86.6508          6
  86.7268          5
  86.8029          9
  86.8789          4
  86.9550         13
  87.0310          8
  87.1071          8
  87.1831          7
  87.2591          5
  87.3352         11
  87.4112          3
  87.4873          6
  87.5633          9
  87.6393          6
  87.7154          7
  87.7914          5
  87.8675          7
  87.9435          8
  88.0196          5
  88.0956          8
  88.1716          6
  88.2477          6
  88.3237          5
  88.3998         12
  88.4758         10
  88.5518          7
  88.6279          5
  88.7039          9
  88.7800          7
  88.8560          5
  88.9320          8
  89.0081          9
  89.0841         11
  89.1602          9
  89.2362          8
  89.3123         10
  89.3883          4
  89.4643          3
  89.5404          6
  89.6164          7
  89.6925         12
  89.7685          7
  89.8445          4
  89.9206          5
  89.9966         14
  90.0727          3
  90.1487          4
  90.2247         10
  90.3008         12
  90.3768          9
  90.4529          7
  90.5289         14
  90.6050          6
  90.6810         15
  90.7570          9
  90.8331         14
  90.9091         26
  90.9852         34
  91.0612        105
  91.1372        134
  91.2133         47
  91.2893         59
  91.3654         88
  91.4414         34
  91.5175         12
  91.5935         11
  91.6695         11
  91.7456         13
  91.8216          9
  91.8977          6
  91.9737         11
  92.0497          7
  92.1258         10
  92.2018          8
  92.2779          7
  92.3539          7
  92.4299          8
  92.5060          6
  92.5820          5
  92.6581          9
  92.7341          6
  92.8102         10
  92.8862          6
  92.9622          7
  93.0383         10
  93.1143          7
  93.1904          7
  93.2664          8
  93.3424         12
  93.4185         10
  93.4945          6
  93.5706          7
  93.6466         12
  93.7227          7
  93.7987         18
  93.8747         11
  93.9508         10
  94.0268         13
  94.1029          8
  94.1789         13
  94.2549          8
  94.3310          5
  94.4070          7
  94.4831          7
  94.5591          9
  94.6351          5
  94.7112         10
  94.7872          3
  94.8633          7
  94.9393         12
  95.0154          8
  95.0914         13
  95.1674          9
  95.2435         10
  95.3195         11
  95.3956          9
  95.4716          7
  95.5476          6
  95.6237         14
  95.6997         13
  95.7758          8
  95.8518          7
  95.9279         12
  96.0039          9
  96.0799         12
  96.1560          9
  96.2320         15
  96.3081         11
  96.3841         28
  96.4601         24
  96.5362         19
  96.6122         14
  96.6883         22
  96.7643         21
  96.8403         13
  96.9164          9
  96.9924         11
  97.0685          4
  97.1445         10
  97.2206         12
  97.2966          2
  97.3726          5
  97.4487          4
  97.5247          8
  97.6008          5
  97.6768          8
  97.7528          6
  97.8289          2
  97.9049          4
  97.9810          9
  98.0570          7
  98.1330          8
  98.2091          8
  98.2851          3
  98.3612          3
  98.4372          5
  98.5133         13
  98.5893          7
  98.6653          6
  98.7414         11
  98.8174          4
  98.8935          6
  98.9695          6
  99.0455         12
  99.1216         10
  99.1976         10
  99.2737          6
  99.3497          7
  99.4258         11
  99.5018          8
  99.5778          6
  99.6539          8
  99.7299         10
  99.8060         12
  99.8820         11
  99.9580         11
 100.0341          7
 100.1101         11
 100.1862         13
 100.2622         12
 100.3382         12
 100.4143          8
 100.4903         11
 100.5664         10
 100.6424          6
 100.7185          8
 100.7945         10
 100.8705          8
 100.9466         13
 101.0226          8
 101.0987         11
 101.1747         13
 101.2507         13
 101.3268         10
 101.4028         12
 101.4789         18
 101.5549         11
 101.6310         18
 101.7070         31
 101.7830        114
 101.8591         67
 101.9351         39
 102.0112         31
 102.0872         64
 102.1632         38
 102.2393         26
 102.3153         15
 102.3914         14
 102.4674         15
 102.5434         10
 102.6195         12
 102.6955         12
 102.7716          9
 102.8476         11
 102.9237          9
 102.9997         11
 103.0757          8
 103.1518          6
 103.2278         10
 103.3039          9
 103.3799          6
 103.4559          7
 103.5320          4
 103.6080         14
 103.6841          5
 103.7601          7
 103.8362         13
 103.9122         10
 103.9882          8
 104.0643          9
 104.1403         11
 104.2164         15
 104.2924         15
 104.3684         12
 104.4445          7
 104.5205         12
 104.5966         18
 104.6726         13
 104.7486         15
 104.8247         10
 104.9007         11
 104.9768         12
 105.0528         14
 105.1289         19
 105.2049          7
 105.2809          8
 105.3570         17
 105.4330         10
 105.5091         12
 105.5851         15
 105.6611         11
 105.7372         15
 105.8132         13
 105.8893         10
 105.9653          9
 106.0413         16
 106.1174          9
 106.1934         12
 106.2695         12
 106.3455          8
 106.4216         13
 106.4976         21
 106.5736         14
 106.6497         12
 106.7257         14
 106.8018          8
 106.8778         20
 106.9538         20
 107.0299         28
 107.1059         57
 107.1820         79
 107.2580        234
 107.3341        178
 107.4101         62
 107.4861         55
 107.5622         87
 107.6382        106
 107.7143         54
 107.7903         27
 107.8663         13
 107.9424         22
 108.0184         11
 108.0945         17
 108.1705         12
 108.2465         17
 108.3226         16
 108.3986         14
 108.4747         11
 108.5507         15
 108.6268         13
 108.7028         16
 108.7788         13
 108.8549         12
 108.9309         10
 109.0070          5
 109.0830         14
 109.1590         14
 109.2351          9
 109.3111         16
 109.3872          7
 109.4632         10
 109.5393          8
 109.6153         11
 109.6913         11
 109.7674         15
 109.8434         12
 109.9195         15
 109.9955         11
 110.0715         10
 110.1476         12
 110.2236         12
 110.2997         14
 110.3757          8
 110.4517          9
 110.5278         16
 110.6038          7
 110.6799         12
 110.7559         11
 110.8320         10
 110.9080         21
 110.9840         13
 111.0601          9
 111.1361          8
 111.2122          9
 111.2882          8
 111.3642         10
 111.4403         11
 111.5163         13
 111.5924         15
 111.6684          9
 111.7445         12
 111.8205          6
 111.8965          5
 111.9726         10
 112.0486          8
 112.1247         13
 112.2007          9
 112.2767         11
 112.3528         17
 112.4288          9
 112.5049         11
 112.5809         11
 112.6569         12
 112.7330          3
 112.8090         11
 112.8851         16
 112.9611          4
 113.0372          6
 113.1132          6
 113.1892          2
 113.2653         12
 113.3413         13
 113.4174          6
 113.4934         14
 113.5694         17
 113.6455          7
 113.7215          9
 113.7976         12
 113.8736         15
 113.9497         12
 114.0257          5
 114.1017         11
 114.1778         16
 114.2538         13
 114.3299          7
 114.4059          8
 114.4819          8
 114.5580          7
 114.6340         16
 114.7101          6
 114.7861         12
 114.8621         13
 114.9382         10
 115.0142          5
 115.0903          4
 115.1663         14
 115.2424         11
 115.3184         15
 115.3944          7
 115.4705         11
 115.5465          5
 115.6226         15
 115.6986          8
 115.7746          9
 115.8507         15
 115.9267         13
 116.0028          9
 116.0788          7
 116.1548         13
 116.2309          9
 116.3069         12
 116.3830          6
 116.4590         10
 116.5351          9
 116.6111         10
 116.6871         13
 116.7632         17
 116.8392         10
 116.9153          7
 116.9913         12
 117.0673         11
 117.1434          7
 117.2194          7
 117.2955          9
 117.3715          8
 117.4476         10
 117.5236         11
 117.5996         10
 117.6757         15
 117.7517         16
 117.8278         14
 117.9038         11
 117.9798         10
 118.0559          8
 118.1319          7
 118.2080         12
 118.2840         14
 118.3600          9
 118.4361          6
 118.5121          6
 118.5882         12
 118.6642         14
 118.7403         24
 118.8163         59
 118.8923         35
 118.9684         14
 119.0444         21
 119.1205         12
 119.1965         40
 119.2725         16
 119.3486         20
 119.4246         17
 119.5007         15
 119.5767         14
 119.6528         17
 119.7288          9
 119.8048         15
 119.8809         15
 119.9569         16
 120.0330          8
 120.1090         10
 120.1850         11
 120.2611         18
 120.3371         13
 120.4132          8
 120.4892         15
 120.5652         11
 120.6413         10
 120.7173          8
 120.7934         15
 120.8694          7
 120.9455          8
 121.0215         14
 121.0975         10
 121.1736          7
 121.2496          8
 121.3257         12
 121.4017         15
 121.4777         10
 121.5538          9
 121.6298         19
 121.7059          9
 121.7819         15
 121.8580         15
 121.9340          9
 122.0100         12
 122.0861         12
 122.1621         11
 122.2382         13
 122.3142          6
 122.3902          9
 122.4663         13
 122.5423          8
 122.6184         18
 122.6944         18
 122.7704         18
 122.8465         13
 122.9225         12
 122.9986         13
 123.0746          8
 123.1507         15
 123.2267         10
 123.3027         13
 123.3788         11
 123.4548         13
 123.5309         14
 123.6069         10
 123.6829         12
 123.7590         13
 123.8350         12
 123.9111         13
 123.9871          9
 124.0631         12
 124.1392         17
 124.2152         15
 124.2913         12
 124.3673         21
 124.4434         10
 124.5194          7
 124.5954         12
 124.6715         20
 124.7475         31
 124.8236         29
 124.8996         47
 124.9756         90
 125.0517        252
 125.1277        180
 125.2038         81
 125.2798         55
 125.3559         44
 125.4319         46
 125.5079        101
 125.5840        140
 125.6600         68
 125.7361         47
 125.8121         18
 125.8881         19
 125.9642         14
 126.0402         19
 126.1163         16
 126.1923         27
 126.2683         13
 126.3444         19
 126.4204         11
 126.4965         14
 126.5725         17
 126.6486         21
 126.7246         13
 126.8006          8
 126.8767         16
 126.9527         14
 127.0288         11
 127.1048          7
 127.1808         12
 127.2569         16
 127.3329         10
 127.4090         13
 127.4850         14
 127.5611         12
 127.6371          7
 127.7131         11
 127.7892         13
 127.8652         10
 127.9413          5
 128.0173          8
 128.0933          8
 128.1694         17
 128.2454         13
 128.3215         19
 128.3975         15
 128.4735         11
 128.5496         12
 128.6256         20
 128.7017         16
 128.7777         18
 128.8538         10
 128.9298         12
 129.0058         13
 129.0819          9
 129.1579          9
 129.2340          9
 129.3100          6
 129.3860         11
 129.4621         11
 129.5381         18
 129.6142         11
 129.6902         13
 129.7663          9
 129.8423         20
 129.9183         15
 129.9944         14
 130.0704         14
 130.1465         11
 130.2225         14
 130.2985         12
 130.3746         17
 130.4506         14
 130.5267          9
 130.6027         10
 130.6787         15
 130.7548         14
 130.8308         13
 130.9069         19
 130.9829         14
 131.0590         15
 131.1350         14
 131.2110          9
 131.2871         21
 131.3631         17
 131.4392         11
 131.5152         21
 131.5912         34
 131.6673         50
 131.7433         78
 131.8194        204
 131.8954        202
 131.9715         94
 132.0475         50
 132.1235         51
 132.1996         37
 132.2756         41
 132.3517         95
 132.4277        121
 132.5037         71
 132.5798         41
 132.6558         27
 132.7319         14
 132.8079         12
 132.8839         14
 132.9600         13
 133.0360         19
 133.1121         16
 133.1881         14
 133.2642          6
 133.3402         15
 133.4162         14
 133.4923          8
 133.5683         12
 133.6444         15
 133.7204         18
 133.7964         11
 133.8725          8
 133.9485          8
 134.0246         12
 134.1006         12
 134.1766          8
 134.2527         12
 134.3287          9
 134.4048         10
 134.4808         11
 134.5569         13
 134.6329          8
 134.7089         11
 134.7850          8
 134.8610          8
 134.9371          7
 135.0131          7
 135.0891         16
 135.1652         15
 135.2412         15
 135.3173          8
 135.3933         15
 135.4694         14
 135.5454          6
 135.6214         13
 135.6975          9
 135.7735          8
 135.8496         12
 135.9256         10
 136.0016         13
 136.0777         17
 136.1537          8
 136.2298         10
 136.3058         11
 136.3818          9
 136.4579          7
 136.5339         10
 136.6100         17
 136.6860          8
 136.7621          8
 136.8381         18
 136.9141         17
 136.9902         19
 137.0662          8
 137.1423         14
 137.2183         10
 137.2943         14
 137.3704          2
 137.4464         11
 137.5225         12
 137.5985         18
 137.6746         16
 137.7506          9
 137.8266          9
 137.9027         17
 137.9787         12
 138.0548          9
 138.1308          8
 138.2068          5
 138.2829         14
 138.3589         19
 138.4350         10
 138.5110         10
 138.5870         18
 138.6631         10
 138.7391         15
 138.8152         10
 138.8912         16
 138.9673          9
 139.0433         16
 139.1193         16
 139.1954         26
 139.2714         22
 139.3475         49
 139.4235        100
 139.4995         89
 139.5756         49
 139.6516         36
 139.7277         19
 139.8037         22
 139.8590         21